{
  "resourceType": "Bundle",
  "id": "12345",
  "type": "message",
  "entry": [
    {
      "resource": {
        "resourceType": "MessageHeader",
        "eventCoding": {
          "system": "https://standards.digital.health.nz/ns/nes-event-type",
          "code": "ENROLMENT_NOMINATION"
        },
        "focus": [
          {
            "reference": "Patient/ZKC4633"
          },
          {
            "reference": "Location/FZZ958-K"
          },
          {
            "reference": "RelatedPerson/ZJM9397"
          }
        ],
        "source": {
          "endpoint": "https://api.hip.digital.health.nz/fhir/nes/v1"
        }
      },
      "fullUrl": "12345"
    },
    {
      "resource": {
        "resourceType": "Patient",
        "id": "ZKC4633",
        "identifier": [
          {
            "use": "official",
            "system": "https://standards.digital.health.nz/ns/nhi-id",
            "value": "ZKC4633"
          }
        ],
        "name": [
          {
            "id": "10",
            "family": "Aufderhar",
            "given": [
              "Baby of Jane"
            ]
          }
        ],
        "gender": "female",
        "birthDate": "2023-05-25",
        "extension": [
          {
            "url": "http://hl7.org.nz/fhir/StructureDefinition/nz-ethnicity",
            "valueCodeableConcept": {
              "coding": [
                {
                  "version": "2.0",
                  "code": "21111",
                  "system": "https://standards.digital.health.nz/ns/ethnic-group-level-4-code",
                  "display": "Māori"
                }
              ]
            }
          }
        ]
      },
      "fullUrl": "Patient/ZKC4633"
    },
    {
      "resource": {
        "resourceType": "Location",
        "id": "FZZ958-K",
        "identifier": [
          {
            "use": "official",
            "system": "https://standards.digital.health.nz/ns/hpi-facility-id",
            "value": "FZZ958-K"
          }
        ],
        "extension": [
          {
            "url": "http://hl7.org.nz/fhir/StructureDefinition/messaging-address",
            "extension": [
              {
                "url": "provider",
                "valueString": "healthlink"
              },
              {
                "url": "value",
                "valueString": "livefacedi"
              }
            ]
          }
        ],
        "name": "AAAA Medical Facilty"
      },
      "fullUrl": "Facilty/FZZ958-K"
    },
    {
      "resource": {
        "resourceType": "RelatedPerson",
        "id": "ZJM9397",
        "identifier": [
          {
            "use": "official",
            "system": "https://standards.digital.health.nz/ns/nhi-id",
            "value": "ZJM9397"
          }
        ],
        "name": [
          {
            "given": [
              "Mary"
            ],
            "family": "Jones"
          }
        ],
        "patient": {
          "reference": "Patient/ZKC4633"
        },
        "relationship": [
          {
            "coding": [
              {
                "system": "http://terminology.hl7.org/CodeSystem/v3-RoleCode",
                "code": "MTH"
              }
            ]
          }
        ]
      },
      "fullUrl": "RelatedPerson/ZJM9397"
    }
  ]
}
